participantId,group,instructionCondition,trialNumber,block,condition,userChoice,outcome,reactionTime,isCorrect,hidden_state,false_feedback
6efcb881,B,Instructions,1,block1,medium_noise,1,loss,3624,0,0,0
6efcb881,B,Instructions,2,block1,medium_noise,0,loss,1609,1,0,1
6efcb881,B,Instructions,3,block1,medium_noise,0,win,1591,1,0,0
6efcb881,B,Instructions,4,block1,medium_noise,0,win,2238,1,0,0
6efcb881,B,Instructions,5,block1,medium_noise,0,loss,2127,1,0,1
6efcb881,B,Instructions,6,block1,medium_noise,1,loss,427,0,0,0
6efcb881,B,Instructions,7,block1,medium_noise,1,loss,582,0,0,0
6efcb881,B,Instructions,8,block1,medium_noise,1,win,1042,0,0,1
6efcb881,B,Instructions,9,block1,medium_noise,1,loss,597,0,0,0
6efcb881,B,Instructions,10,block1,medium_noise,0,win,549,1,0,0
6efcb881,B,Instructions,11,block1,medium_noise,0,loss,1930,1,0,1
6efcb881,B,Instructions,12,block1,medium_noise,0,loss,554,1,0,1
6efcb881,B,Instructions,13,block1,medium_noise,0,loss,622,0,1,0
6efcb881,B,Instructions,14,block1,medium_noise,0,win,559,0,1,1
6efcb881,B,Instructions,15,block1,medium_noise,0,loss,934,0,1,0
6efcb881,B,Instructions,16,block1,medium_noise,1,loss,566,1,1,1
6efcb881,B,Instructions,17,block1,medium_noise,0,loss,50,0,1,0
6efcb881,B,Instructions,18,block1,medium_noise,1,win,118,1,1,0
6efcb881,B,Instructions,19,block1,medium_noise,0,loss,98,0,1,0
6efcb881,B,Instructions,20,block1,medium_noise,1,win,104,1,1,0
6efcb881,B,Instructions,21,block1,medium_noise,0,win,380,1,0,0
6efcb881,B,Instructions,22,block1,medium_noise,1,loss,131,0,0,0
6efcb881,B,Instructions,23,block1,medium_noise,0,win,144,1,0,0
6efcb881,B,Instructions,24,block1,medium_noise,0,loss,332,1,0,1
6efcb881,B,Instructions,25,block1,medium_noise,1,loss,1063,0,0,0
6efcb881,B,Instructions,26,block1,medium_noise,0,loss,1145,1,0,1
6efcb881,B,Instructions,27,block1,medium_noise,0,win,961,1,0,0
6efcb881,B,Instructions,28,block1,medium_noise,0,win,677,1,0,0
6efcb881,B,Instructions,29,block1,medium_noise,0,win,630,1,0,0
6efcb881,B,Instructions,30,block1,medium_noise,0,win,617,1,0,0
6efcb881,B,Instructions,31,block1,medium_noise,0,win,558,1,0,0
6efcb881,B,Instructions,32,block1,medium_noise,0,win,558,1,0,0
6efcb881,B,Instructions,33,block1,medium_noise,0,loss,580,1,0,1
6efcb881,B,Instructions,34,block1,medium_noise,0,loss,954,1,0,1
6efcb881,B,Instructions,35,block1,medium_noise,0,win,743,1,0,0
6efcb881,B,Instructions,36,block1,medium_noise,0,win,370,1,0,0
6efcb881,B,Instructions,37,block1,medium_noise,0,win,436,1,0,0
6efcb881,B,Instructions,38,block1,medium_noise,0,win,386,1,0,0
6efcb881,B,Instructions,39,block1,medium_noise,0,win,401,1,0,0
6efcb881,B,Instructions,40,block1,medium_noise,0,win,326,1,0,0
6efcb881,B,Instructions,41,block1,medium_noise,0,win,359,1,0,0
6efcb881,B,Instructions,42,block1,medium_noise,0,win,405,1,0,0
6efcb881,B,Instructions,43,block1,medium_noise,0,win,510,1,0,0
6efcb881,B,Instructions,44,block1,medium_noise,0,win,431,1,0,0
6efcb881,B,Instructions,45,block1,medium_noise,0,win,411,1,0,0
6efcb881,B,Instructions,46,block1,medium_noise,0,win,492,1,0,0
6efcb881,B,Instructions,47,block1,medium_noise,0,win,501,1,0,0
6efcb881,B,Instructions,48,block1,medium_noise,0,loss,430,1,0,1
6efcb881,B,Instructions,49,block1,medium_noise,0,win,441,1,0,0
6efcb881,B,Instructions,50,block1,medium_noise,0,win,413,1,0,0
6efcb881,B,Instructions,1,block2,high_noise,0,loss,1598,0,1,0
6efcb881,B,Instructions,2,block2,high_noise,0,loss,1229,0,1,0
6efcb881,B,Instructions,3,block2,high_noise,0,win,516,0,1,1
6efcb881,B,Instructions,4,block2,high_noise,0,loss,231,0,1,0
6efcb881,B,Instructions,5,block2,high_noise,0,win,892,0,1,1
6efcb881,B,Instructions,6,block2,high_noise,0,win,336,1,0,0
6efcb881,B,Instructions,7,block2,high_noise,0,win,884,1,0,0
6efcb881,B,Instructions,8,block2,high_noise,0,win,1211,1,0,0
6efcb881,B,Instructions,9,block2,high_noise,0,win,959,1,0,0
6efcb881,B,Instructions,10,block2,high_noise,0,win,920,1,0,0
6efcb881,B,Instructions,11,block2,high_noise,0,win,673,0,1,1
6efcb881,B,Instructions,12,block2,high_noise,0,win,597,0,1,1
6efcb881,B,Instructions,13,block2,high_noise,0,loss,550,0,1,0
6efcb881,B,Instructions,14,block2,high_noise,0,win,801,0,1,1
6efcb881,B,Instructions,15,block2,high_noise,0,win,605,0,1,1
6efcb881,B,Instructions,16,block2,high_noise,0,loss,507,0,1,0
6efcb881,B,Instructions,17,block2,high_noise,0,loss,534,1,0,1
6efcb881,B,Instructions,18,block2,high_noise,0,loss,465,1,0,1
6efcb881,B,Instructions,19,block2,high_noise,0,loss,539,1,0,1
6efcb881,B,Instructions,20,block2,high_noise,1,loss,699,0,0,0
6efcb881,B,Instructions,21,block2,high_noise,0,win,247,1,0,0
6efcb881,B,Instructions,22,block2,high_noise,0,win,495,1,0,0
6efcb881,B,Instructions,23,block2,high_noise,0,loss,544,1,0,1
6efcb881,B,Instructions,24,block2,high_noise,0,win,668,1,0,0
6efcb881,B,Instructions,25,block2,high_noise,0,win,502,1,0,0
6efcb881,B,Instructions,26,block2,high_noise,0,win,514,1,0,0
6efcb881,B,Instructions,27,block2,high_noise,0,win,528,1,0,0
6efcb881,B,Instructions,28,block2,high_noise,0,win,494,1,0,0
6efcb881,B,Instructions,29,block2,high_noise,0,win,530,1,0,0
6efcb881,B,Instructions,30,block2,high_noise,0,loss,558,1,0,1
6efcb881,B,Instructions,31,block2,high_noise,0,win,647,1,0,0
6efcb881,B,Instructions,32,block2,high_noise,0,loss,627,1,0,1
6efcb881,B,Instructions,33,block2,high_noise,0,win,624,1,0,0
6efcb881,B,Instructions,34,block2,high_noise,0,win,468,1,0,0
6efcb881,B,Instructions,35,block2,high_noise,0,loss,547,1,0,1
6efcb881,B,Instructions,36,block2,high_noise,0,win,489,1,0,0
6efcb881,B,Instructions,37,block2,high_noise,0,win,498,1,0,0
6efcb881,B,Instructions,38,block2,high_noise,0,loss,577,1,0,1
6efcb881,B,Instructions,39,block2,high_noise,0,win,484,1,0,0
6efcb881,B,Instructions,40,block2,high_noise,0,win,470,1,0,0
6efcb881,B,Instructions,41,block2,high_noise,0,win,506,1,0,0
6efcb881,B,Instructions,42,block2,high_noise,0,win,552,1,0,0
6efcb881,B,Instructions,43,block2,high_noise,0,win,582,1,0,0
6efcb881,B,Instructions,44,block2,high_noise,0,win,594,1,0,0
6efcb881,B,Instructions,45,block2,high_noise,0,loss,500,1,0,1
6efcb881,B,Instructions,46,block2,high_noise,0,loss,556,1,0,1
6efcb881,B,Instructions,47,block2,high_noise,0,loss,517,1,0,1
6efcb881,B,Instructions,48,block2,high_noise,0,win,835,1,0,0
6efcb881,B,Instructions,49,block2,high_noise,0,win,636,1,0,0
6efcb881,B,Instructions,50,block2,high_noise,0,win,910,1,0,0
