participantId,group,instructionCondition,trialNumber,block,condition,userChoice,outcome,reactionTime,isCorrect,hidden_state,false_feedback
2eade079,B,Instructions,1,block1,high_noise,0,win,6009,0,1,1
2eade079,B,Instructions,2,block1,high_noise,0,loss,5434,0,1,0
2eade079,B,Instructions,3,block1,high_noise,1,win,2423,1,1,0
2eade079,B,Instructions,4,block1,high_noise,1,win,2816,1,1,0
2eade079,B,Instructions,5,block1,high_noise,1,win,1278,1,1,0
2eade079,B,Instructions,6,block1,high_noise,1,win,797,1,1,0
2eade079,B,Instructions,7,block1,high_noise,1,win,697,1,1,0
2eade079,B,Instructions,8,block1,high_noise,1,win,622,1,1,0
2eade079,B,Instructions,9,block1,high_noise,1,loss,384,1,1,1
2eade079,B,Instructions,10,block1,high_noise,0,win,697,0,1,1
2eade079,B,Instructions,11,block1,high_noise,0,win,643,0,1,1
2eade079,B,Instructions,12,block1,high_noise,0,win,416,0,1,1
2eade079,B,Instructions,13,block1,high_noise,0,loss,339,0,1,0
2eade079,B,Instructions,14,block1,high_noise,1,loss,526,1,1,1
2eade079,B,Instructions,15,block1,high_noise,0,loss,570,0,1,0
2eade079,B,Instructions,16,block1,high_noise,0,loss,393,0,1,0
2eade079,B,Instructions,17,block1,high_noise,1,win,1591,1,1,0
2eade079,B,Instructions,18,block1,high_noise,1,loss,514,1,1,1
2eade079,B,Instructions,19,block1,high_noise,1,win,572,1,1,0
2eade079,B,Instructions,20,block1,high_noise,1,win,1601,1,1,0
2eade079,B,Instructions,21,block1,high_noise,1,win,523,1,1,0
2eade079,B,Instructions,22,block1,high_noise,1,win,297,1,1,0
2eade079,B,Instructions,23,block1,high_noise,1,loss,176,1,1,1
2eade079,B,Instructions,24,block1,high_noise,0,loss,476,0,1,0
2eade079,B,Instructions,25,block1,high_noise,0,win,328,1,0,0
2eade079,B,Instructions,26,block1,high_noise,0,win,428,1,0,0
2eade079,B,Instructions,27,block1,high_noise,0,loss,346,1,0,1
2eade079,B,Instructions,28,block1,high_noise,0,win,602,1,0,0
2eade079,B,Instructions,29,block1,high_noise,0,win,1751,1,0,0
2eade079,B,Instructions,30,block1,high_noise,0,win,488,1,0,0
2eade079,B,Instructions,31,block1,high_noise,0,win,412,1,0,0
2eade079,B,Instructions,32,block1,high_noise,0,win,166,1,0,0
2eade079,B,Instructions,33,block1,high_noise,0,win,617,1,0,0
2eade079,B,Instructions,34,block1,high_noise,0,win,355,1,0,0
2eade079,B,Instructions,35,block1,high_noise,0,win,407,1,0,0
2eade079,B,Instructions,36,block1,high_noise,0,win,350,1,0,0
2eade079,B,Instructions,37,block1,high_noise,0,loss,328,1,0,1
2eade079,B,Instructions,38,block1,high_noise,1,win,609,0,0,1
2eade079,B,Instructions,39,block1,high_noise,1,win,1038,0,0,1
2eade079,B,Instructions,40,block1,high_noise,1,win,500,0,0,1
2eade079,B,Instructions,41,block1,high_noise,1,win,435,0,0,1
2eade079,B,Instructions,42,block1,high_noise,1,win,363,0,0,1
2eade079,B,Instructions,43,block1,high_noise,1,loss,539,0,0,0
2eade079,B,Instructions,44,block1,high_noise,1,loss,456,0,0,0
2eade079,B,Instructions,45,block1,high_noise,0,loss,560,1,0,1
2eade079,B,Instructions,46,block1,high_noise,1,loss,641,0,0,0
2eade079,B,Instructions,47,block1,high_noise,1,win,445,0,0,1
2eade079,B,Instructions,48,block1,high_noise,1,loss,419,0,0,0
2eade079,B,Instructions,49,block1,high_noise,1,loss,1023,0,0,0
2eade079,B,Instructions,50,block1,high_noise,0,win,649,1,0,0
2eade079,B,Instructions,1,block2,medium_noise,0,win,2057,1,0,0
2eade079,B,Instructions,2,block2,medium_noise,0,loss,931,1,0,1
2eade079,B,Instructions,3,block2,medium_noise,1,win,1424,0,0,1
2eade079,B,Instructions,4,block2,medium_noise,1,win,351,0,0,1
2eade079,B,Instructions,5,block2,medium_noise,1,loss,515,0,0,0
2eade079,B,Instructions,6,block2,medium_noise,1,loss,484,0,0,0
2eade079,B,Instructions,7,block2,medium_noise,0,win,535,1,0,0
2eade079,B,Instructions,8,block2,medium_noise,0,win,804,1,0,0
2eade079,B,Instructions,9,block2,medium_noise,0,win,805,1,0,0
2eade079,B,Instructions,10,block2,medium_noise,0,win,162,1,0,0
2eade079,B,Instructions,11,block2,medium_noise,0,win,738,1,0,0
2eade079,B,Instructions,12,block2,medium_noise,0,win,340,1,0,0
2eade079,B,Instructions,13,block2,medium_noise,0,loss,983,1,0,1
2eade079,B,Instructions,14,block2,medium_noise,1,loss,1623,1,1,1
2eade079,B,Instructions,15,block2,medium_noise,0,loss,383,0,1,0
2eade079,B,Instructions,16,block2,medium_noise,0,loss,611,0,1,0
2eade079,B,Instructions,17,block2,medium_noise,1,win,618,1,1,0
2eade079,B,Instructions,18,block2,medium_noise,1,win,393,1,1,0
2eade079,B,Instructions,19,block2,medium_noise,1,win,379,1,1,0
2eade079,B,Instructions,20,block2,medium_noise,1,loss,378,0,0,0
2eade079,B,Instructions,21,block2,medium_noise,0,win,744,1,0,0
2eade079,B,Instructions,22,block2,medium_noise,0,win,291,1,0,0
2eade079,B,Instructions,23,block2,medium_noise,0,loss,245,1,0,1
2eade079,B,Instructions,24,block2,medium_noise,0,win,975,1,0,0
2eade079,B,Instructions,25,block2,medium_noise,0,win,448,1,0,0
2eade079,B,Instructions,26,block2,medium_noise,0,win,385,1,0,0
2eade079,B,Instructions,27,block2,medium_noise,0,win,368,1,0,0
2eade079,B,Instructions,28,block2,medium_noise,0,loss,440,0,1,0
2eade079,B,Instructions,29,block2,medium_noise,0,loss,1007,0,1,0
2eade079,B,Instructions,30,block2,medium_noise,1,win,567,1,1,0
2eade079,B,Instructions,31,block2,medium_noise,1,win,361,1,1,0
2eade079,B,Instructions,32,block2,medium_noise,1,loss,378,1,1,1
2eade079,B,Instructions,33,block2,medium_noise,1,win,733,1,1,0
2eade079,B,Instructions,34,block2,medium_noise,1,win,564,1,1,0
2eade079,B,Instructions,35,block2,medium_noise,1,win,787,1,1,0
2eade079,B,Instructions,36,block2,medium_noise,1,win,535,1,1,0
2eade079,B,Instructions,37,block2,medium_noise,1,loss,407,1,1,1
2eade079,B,Instructions,38,block2,medium_noise,0,loss,623,0,1,0
2eade079,B,Instructions,39,block2,medium_noise,1,win,491,1,1,0
2eade079,B,Instructions,40,block2,medium_noise,1,loss,306,0,0,0
2eade079,B,Instructions,41,block2,medium_noise,1,loss,583,0,0,0
2eade079,B,Instructions,42,block2,medium_noise,0,win,433,1,0,0
2eade079,B,Instructions,43,block2,medium_noise,0,win,389,1,0,0
2eade079,B,Instructions,44,block2,medium_noise,0,win,459,1,0,0
2eade079,B,Instructions,45,block2,medium_noise,0,win,469,1,0,0
2eade079,B,Instructions,46,block2,medium_noise,0,win,440,1,0,0
2eade079,B,Instructions,47,block2,medium_noise,0,loss,506,0,1,0
2eade079,B,Instructions,48,block2,medium_noise,0,loss,734,0,1,0
2eade079,B,Instructions,49,block2,medium_noise,1,win,257,1,1,0
2eade079,B,Instructions,50,block2,medium_noise,1,win,910,1,1,0
